{
  "metadata": {
    "study_id": "STUDY001",
    "sdtmig_version": "SDTMIG v3.4",
    "dataset_name": "VS",
    "description": "This is generated data not based on any real study or patient.",
    "creation_date": "2025-07-16T17:07:25Z",
    "dataset_label": "Vital Signs",
    "record_count": 50
  },
  "variables": [
    {
      "name": "STUDYID",
      "label": "Study Identifier",
      "type": "Char",
      "role": "Identifier",
      "class": "Findings"
    },
    {
      "name": "DOMAIN",
      "label": "Domain Abbreviation",
      "type": "Char",
      "role": "Identifier",
      "class": "Findings"
    },
    {
      "name": "USUBJID",
      "label": "Unique Subject Identifier",
      "type": "Char",
      "role": "Identifier",
      "class": "Findings"
    },
    {
      "name": "VSSEQ",
      "label": "Sequence Number",
      "type": "Num",
      "role": "Identifier",
      "class": "Findings"
    },
    {
      "name": "VSTESTCD",
      "label": "Vital Signs Test Short Name",
      "type": "Char",
      "role": "Topic",
      "class": "Findings"
    },
    {
      "name": "VSTEST",
      "label": "Vital Signs Test Name",
      "type": "Char",
      "role": "Synonym Qualifier",
      "class": "Findings"
    },
    {
      "name": "VSORRES",
      "label": "Result or Finding in Original Units",
      "type": "Char",
      "role": "Result Qualifier",
      "class": "Findings"
    },
    {
      "name": "VSORRESU",
      "label": "Original Units",
      "type": "Char",
      "role": "Variable Qualifier",
      "class": "Findings"
    },
    {
      "name": "VSSTRESC",
      "label": "Character Result/Finding in Std Format",
      "type": "Char",
      "role": "Result Qualifier",
      "class": "Findings"
    },
    {
      "name": "VSSTRESN",
      "label": "Numeric Result/Finding in Standard Units",
      "type": "Num",
      "role": "Result Qualifier",
      "class": "Findings"
    },
    {
      "name": "VSSTRESU",
      "label": "Standard Units",
      "type": "Char",
      "role": "Variable Qualifier",
      "class": "Findings"
    },
    {
      "name": "VSLOC",
      "label": "Location of Measurement",
      "type": "Char",
      "role": "Record Qualifier",
      "class": "Findings"
    },
    {
      "name": "VISITNUM",
      "label": "Visit Number",
      "type": "Num",
      "role": "Timing",
      "class": "Findings"
    },
    {
      "name": "VSDTC",
      "label": "Date/Time of Measurement",
      "type": "Char",
      "role": "Timing",
      "class": "Findings"
    }
  ],
  "data": [
    {
      "STUDYID": "CAMIS-001",
      "DOMAIN": "VS",
      "USUBJID": "CAMIS-PT-001",
      "VSSEQ": 1,
      "VSTESTCD": "SYSBP",
      "VSTEST": "Systolic Blood Pressure",
      "VSORRES": "123.5",
      "VSORRESU": "mmHg",
      "VSSTRESC": "123.5",
      "VSSTRESN": 123.5,
      "VSSTRESU": "mmHg",
      "VSLOC": "RIGHT ARM",
      "VISITNUM": 1,
      "VSDTC": "2025-06-01"
    },
    {
      "STUDYID": "CAMIS-001",
      "DOMAIN": "VS",
      "USUBJID": "CAMIS-PT-031",
      "VSSEQ": 31,
      "VSTESTCD": "SYSBP",
      "VSTEST": "Systolic Blood Pressure",
      "VSORRES": "118.0",
      "VSORRESU": "mmHg",
      "VSSTRESC": "118.0",
      "VSSTRESN": 118.0,
      "VSSTRESU": "mmHg",
      "VSLOC": "RIGHT ARM",
      "VISITNUM": 2,
      "VSDTC": "2025-06-01"
    },
    {
      "STUDYID": "CAMIS-001",
      "DOMAIN": "VS",
      "USUBJID": "CAMIS-PT-002",
      "VSSEQ": 2,
      "VSTESTCD": "SYSBP",
      "VSTEST": "Systolic Blood Pressure",
      "VSORRES": "120.3",
      "VSORRESU": "mmHg",
      "VSSTRESC": "120.3",
      "VSSTRESN": 120.3,
      "VSSTRESU": "mmHg",
      "VSLOC": "LEFT ARM",
      "VISITNUM": 3,
      "VSDTC": "2025-06-02"
    },
    {
      "STUDYID": "CAMIS-001",
      "DOMAIN": "VS",
      "USUBJID": "CAMIS-PT-032",
      "VSSEQ": 32,
      "VSTESTCD": "SYSBP",
      "VSTEST": "Systolic Blood Pressure",
      "VSORRES": "130.3",
      "VSORRESU": "mmHg",
      "VSSTRESC": "130.3",
      "VSSTRESN": 130.3,
      "VSSTRESU": "mmHg",
      "VSLOC": "RIGHT ARM",
      "VISITNUM": 4,
      "VSDTC": "2025-06-02"
    },
    {
      "STUDYID": "CAMIS-001",
      "DOMAIN": "VS",
      "USUBJID": "CAMIS-PT-003",
      "VSSEQ": 3,
      "VSTESTCD": "SYSBP",
      "VSTEST": "Systolic Blood Pressure",
      "VSORRES": "124.2",
      "VSORRESU": "mmHg",
      "VSSTRESC": "124.2",
      "VSSTRESN": 124.2,
      "VSSTRESU": "mmHg",
      "VSLOC": "RIGHT ARM",
      "VISITNUM": 5,
      "VSDTC": "2025-06-03"
    },
    {
      "STUDYID": "CAMIS-001",
      "DOMAIN": "VS",
      "USUBJID": "CAMIS-PT-033",
      "VSSEQ": 33,
      "VSTESTCD": "SYSBP",
      "VSTEST": "Systolic Blood Pressure",
      "VSORRES": "120.9",
      "VSORRESU": "mmHg",
      "VSSTRESC": "120.9",
      "VSSTRESN": 120.9,
      "VSSTRESU": "mmHg",
      "VSLOC": "RIGHT ARM",
      "VISITNUM": 6,
      "VSDTC": "2025-06-03"
    },
    {
      "STUDYID": "CAMIS-001",
      "DOMAIN": "VS",
      "USUBJID": "CAMIS-PT-004",
      "VSSEQ": 4,
      "VSTESTCD": "SYSBP",
      "VSTEST": "Systolic Blood Pressure",
      "VSORRES": "128.6",
      "VSORRESU": "mmHg",
      "VSSTRESC": "128.6",
      "VSSTRESN": 128.6,
      "VSSTRESU": "mmHg",
      "VSLOC": "LEFT ARM",
      "VISITNUM": 7,
      "VSDTC": "2025-06-04"
    },
    {
      "STUDYID": "CAMIS-001",
      "DOMAIN": "VS",
      "USUBJID": "CAMIS-PT-034",
      "VSSEQ": 34,
      "VSTESTCD": "SYSBP",
      "VSTEST": "Systolic Blood Pressure",
      "VSORRES": "115.7",
      "VSORRESU": "mmHg",
      "VSSTRESC": "115.7",
      "VSSTRESN": 115.7,
      "VSSTRESU": "mmHg",
      "VSLOC": "RIGHT ARM",
      "VISITNUM": 8,
      "VSDTC": "2025-06-04"
    },
    {
      "STUDYID": "CAMIS-001",
      "DOMAIN": "VS",
      "USUBJID": "CAMIS-PT-005",
      "VSSEQ": 5,
      "VSTESTCD": "SYSBP",
      "VSTEST": "Systolic Blood Pressure",
      "VSORRES": "119.8",
      "VSORRESU": "mmHg",
      "VSSTRESC": "119.8",
      "VSSTRESN": 119.8,
      "VSSTRESU": "mmHg",
      "VSLOC": "LEFT ARM",
      "VISITNUM": 9,
      "VSDTC": "2025-06-05"
    },
    {
      "STUDYID": "CAMIS-001",
      "DOMAIN": "VS",
      "USUBJID": "CAMIS-PT-035",
      "VSSEQ": 35,
      "VSTESTCD": "SYSBP",
      "VSTEST": "Systolic Blood Pressure",
      "VSORRES": "125.1",
      "VSORRESU": "mmHg",
      "VSSTRESC": "125.1",
      "VSSTRESN": 125.1,
      "VSSTRESU": "mmHg",
      "VSLOC": "RIGHT ARM",
      "VISITNUM": 10,
      "VSDTC": "2025-06-05"
    },
    {
      "STUDYID": "CAMIS-001",
      "DOMAIN": "VS",
      "USUBJID": "CAMIS-PT-006",
      "VSSEQ": 6,
      "VSTESTCD": "SYSBP",
      "VSTEST": "Systolic Blood Pressure",
      "VSORRES": "119.8",
      "VSORRESU": "mmHg",
      "VSSTRESC": "119.8",
      "VSSTRESN": 119.8,
      "VSSTRESU": "mmHg",
      "VSLOC": "RIGHT ARM",
      "VISITNUM": 11,
      "VSDTC": "2025-06-06"
    },
    {
      "STUDYID": "CAMIS-001",
      "DOMAIN": "VS",
      "USUBJID": "CAMIS-PT-036",
      "VSSEQ": 36,
      "VSTESTCD": "SYSBP",
      "VSTEST": "Systolic Blood Pressure",
      "VSORRES": "114.9",
      "VSORRESU": "mmHg",
      "VSSTRESC": "114.9",
      "VSSTRESN": 114.9,
      "VSSTRESU": "mmHg",
      "VSLOC": "RIGHT ARM",
      "VISITNUM": 12,
      "VSDTC": "2025-06-06"
    },
    {
      "STUDYID": "CAMIS-001",
      "DOMAIN": "VS",
      "USUBJID": "CAMIS-PT-007",
      "VSSEQ": 7,
      "VSTESTCD": "SYSBP",
      "VSTEST": "Systolic Blood Pressure",
      "VSORRES": "128.9",
      "VSORRESU": "mmHg",
      "VSSTRESC": "128.9",
      "VSSTRESN": 128.9,
      "VSSTRESU": "mmHg",
      "VSLOC": "RIGHT ARM",
      "VISITNUM": 13,
      "VSDTC": "2025-06-07"
    },
    {
      "STUDYID": "CAMIS-001",
      "DOMAIN": "VS",
      "USUBJID": "CAMIS-PT-037",
      "VSSEQ": 37,
      "VSTESTCD": "SYSBP",
      "VSTEST": "Systolic Blood Pressure",
      "VSORRES": "122.0",
      "VSORRESU": "mmHg",
      "VSSTRESC": "122.0",
      "VSSTRESN": 122.0,
      "VSSTRESU": "mmHg",
      "VSLOC": "LEFT ARM",
      "VISITNUM": 14,
      "VSDTC": "2025-06-07"
    },
    {
      "STUDYID": "CAMIS-001",
      "DOMAIN": "VS",
      "USUBJID": "CAMIS-PT-008",
      "VSSEQ": 8,
      "VSTESTCD": "SYSBP",
      "VSTEST": "Systolic Blood Pressure",
      "VSORRES": "124.8",
      "VSORRESU": "mmHg",
      "VSSTRESC": "124.8",
      "VSSTRESN": 124.8,
      "VSSTRESU": "mmHg",
      "VSLOC": "LEFT ARM",
      "VISITNUM": 15,
      "VSDTC": "2025-06-08"
    },
    {
      "STUDYID": "CAMIS-001",
      "DOMAIN": "VS",
      "USUBJID": "CAMIS-PT-038",
      "VSSEQ": 38,
      "VSTESTCD": "SYSBP",
      "VSTEST": "Systolic Blood Pressure",
      "VSORRES": "111.2",
      "VSORRESU": "mmHg",
      "VSSTRESC": "111.2",
      "VSSTRESN": 111.2,
      "VSSTRESU": "mmHg",
      "VSLOC": "LEFT ARM",
      "VISITNUM": 16,
      "VSDTC": "2025-06-08"
    },
    {
      "STUDYID": "CAMIS-001",
      "DOMAIN": "VS",
      "USUBJID": "CAMIS-PT-009",
      "VSSEQ": 9,
      "VSTESTCD": "SYSBP",
      "VSTEST": "Systolic Blood Pressure",
      "VSORRES": "118.7",
      "VSORRESU": "mmHg",
      "VSSTRESC": "118.7",
      "VSSTRESN": 118.7,
      "VSSTRESU": "mmHg",
      "VSLOC": "LEFT ARM",
      "VISITNUM": 17,
      "VSDTC": "2025-06-09"
    },
    {
      "STUDYID": "CAMIS-001",
      "DOMAIN": "VS",
      "USUBJID": "CAMIS-PT-039",
      "VSSEQ": 39,
      "VSTESTCD": "SYSBP",
      "VSTEST": "Systolic Blood Pressure",
      "VSORRES": "114.4",
      "VSORRESU": "mmHg",
      "VSSTRESC": "114.4",
      "VSSTRESN": 114.4,
      "VSSTRESU": "mmHg",
      "VSLOC": "RIGHT ARM",
      "VISITNUM": 18,
      "VSDTC": "2025-06-09"
    },
    {
      "STUDYID": "CAMIS-001",
      "DOMAIN": "VS",
      "USUBJID": "CAMIS-PT-010",
      "VSSEQ": 10,
      "VSTESTCD": "SYSBP",
      "VSTEST": "Systolic Blood Pressure",
      "VSORRES": "123.7",
      "VSORRESU": "mmHg",
      "VSSTRESC": "123.7",
      "VSSTRESN": 123.7,
      "VSSTRESU": "mmHg",
      "VSLOC": "RIGHT ARM",
      "VISITNUM": 19,
      "VSDTC": "2025-06-10"
    },
    {
      "STUDYID": "CAMIS-001",
      "DOMAIN": "VS",
      "USUBJID": "CAMIS-PT-040",
      "VSSEQ": 40,
      "VSTESTCD": "SYSBP",
      "VSTEST": "Systolic Blood Pressure",
      "VSORRES": "122.0",
      "VSORRESU": "mmHg",
      "VSSTRESC": "122.0",
      "VSSTRESN": 122.0,
      "VSSTRESU": "mmHg",
      "VSLOC": "LEFT ARM",
      "VISITNUM": 20,
      "VSDTC": "2025-06-10"
    },
    {
      "STUDYID": "CAMIS-001",
      "DOMAIN": "VS",
      "USUBJID": "CAMIS-PT-011",
      "VSSEQ": 11,
      "VSTESTCD": "SYSBP",
      "VSTEST": "Systolic Blood Pressure",
      "VSORRES": "118.7",
      "VSORRESU": "mmHg",
      "VSSTRESC": "118.7",
      "VSSTRESN": 118.7,
      "VSSTRESU": "mmHg",
      "VSLOC": "RIGHT ARM",
      "VISITNUM": 21,
      "VSDTC": "2025-06-11"
    },
    {
      "STUDYID": "CAMIS-001",
      "DOMAIN": "VS",
      "USUBJID": "CAMIS-PT-041",
      "VSSEQ": 41,
      "VSTESTCD": "SYSBP",
      "VSTEST": "Systolic Blood Pressure",
      "VSORRES": "124.7",
      "VSORRESU": "mmHg",
      "VSSTRESC": "124.7",
      "VSSTRESN": 124.7,
      "VSSTRESU": "mmHg",
      "VSLOC": "LEFT ARM",
      "VISITNUM": 22,
      "VSDTC": "2025-06-11"
    },
    {
      "STUDYID": "CAMIS-001",
      "DOMAIN": "VS",
      "USUBJID": "CAMIS-PT-012",
      "VSSEQ": 12,
      "VSTESTCD": "SYSBP",
      "VSTEST": "Systolic Blood Pressure",
      "VSORRES": "118.7",
      "VSORRESU": "mmHg",
      "VSSTRESC": "118.7",
      "VSSTRESN": 118.7,
      "VSSTRESU": "mmHg",
      "VSLOC": "LEFT ARM",
      "VISITNUM": 23,
      "VSDTC": "2025-06-12"
    },
    {
      "STUDYID": "CAMIS-001",
      "DOMAIN": "VS",
      "USUBJID": "CAMIS-PT-042",
      "VSSEQ": 42,
      "VSTESTCD": "SYSBP",
      "VSTEST": "Systolic Blood Pressure",
      "VSORRES": "121.9",
      "VSORRESU": "mmHg",
      "VSSTRESC": "121.9",
      "VSSTRESN": 121.9,
      "VSSTRESU": "mmHg",
      "VSLOC": "LEFT ARM",
      "VISITNUM": 24,
      "VSDTC": "2025-06-12"
    },
    {
      "STUDYID": "CAMIS-001",
      "DOMAIN": "VS",
      "USUBJID": "CAMIS-PT-013",
      "VSSEQ": 13,
      "VSTESTCD": "SYSBP",
      "VSTEST": "Systolic Blood Pressure",
      "VSORRES": "122.2",
      "VSORRESU": "mmHg",
      "VSSTRESC": "122.2",
      "VSSTRESN": 122.2,
      "VSSTRESU": "mmHg",
      "VSLOC": "LEFT ARM",
      "VISITNUM": 25,
      "VSDTC": "2025-06-13"
    },
    {
      "STUDYID": "CAMIS-001",
      "DOMAIN": "VS",
      "USUBJID": "CAMIS-PT-043",
      "VSSEQ": 43,
      "VSTESTCD": "SYSBP",
      "VSTEST": "Systolic Blood Pressure",
      "VSORRES": "120.4",
      "VSORRESU": "mmHg",
      "VSSTRESC": "120.4",
      "VSSTRESN": 120.4,
      "VSSTRESU": "mmHg",
      "VSLOC": "LEFT ARM",
      "VISITNUM": 26,
      "VSDTC": "2025-06-13"
    },
    {
      "STUDYID": "CAMIS-001",
      "DOMAIN": "VS",
      "USUBJID": "CAMIS-PT-014",
      "VSSEQ": 14,
      "VSTESTCD": "SYSBP",
      "VSTEST": "Systolic Blood Pressure",
      "VSORRES": "111.4",
      "VSORRESU": "mmHg",
      "VSSTRESC": "111.4",
      "VSSTRESN": 111.4,
      "VSSTRESU": "mmHg",
      "VSLOC": "RIGHT ARM",
      "VISITNUM": 27,
      "VSDTC": "2025-06-14"
    },
    {
      "STUDYID": "CAMIS-001",
      "DOMAIN": "VS",
      "USUBJID": "CAMIS-PT-044",
      "VSSEQ": 44,
      "VSTESTCD": "SYSBP",
      "VSTEST": "Systolic Blood Pressure",
      "VSORRES": "119.5",
      "VSORRESU": "mmHg",
      "VSSTRESC": "119.5",
      "VSSTRESN": 119.5,
      "VSSTRESU": "mmHg",
      "VSLOC": "LEFT ARM",
      "VISITNUM": 28,
      "VSDTC": "2025-06-14"
    },
    {
      "STUDYID": "CAMIS-001",
      "DOMAIN": "VS",
      "USUBJID": "CAMIS-PT-015",
      "VSSEQ": 15,
      "VSTESTCD": "SYSBP",
      "VSTEST": "Systolic Blood Pressure",
      "VSORRES": "112.4",
      "VSORRESU": "mmHg",
      "VSSTRESC": "112.4",
      "VSSTRESN": 112.4,
      "VSSTRESU": "mmHg",
      "VSLOC": "RIGHT ARM",
      "VISITNUM": 29,
      "VSDTC": "2025-06-15"
    },
    {
      "STUDYID": "CAMIS-001",
      "DOMAIN": "VS",
      "USUBJID": "CAMIS-PT-045",
      "VSSEQ": 45,
      "VSTESTCD": "SYSBP",
      "VSTEST": "Systolic Blood Pressure",
      "VSORRES": "113.6",
      "VSORRESU": "mmHg",
      "VSSTRESC": "113.6",
      "VSSTRESN": 113.6,
      "VSSTRESU": "mmHg",
      "VSLOC": "RIGHT ARM",
      "VISITNUM": 30,
      "VSDTC": "2025-06-15"
    },
    {
      "STUDYID": "CAMIS-001",
      "DOMAIN": "VS",
      "USUBJID": "CAMIS-PT-016",
      "VSSEQ": 16,
      "VSTESTCD": "SYSBP",
      "VSTEST": "Systolic Blood Pressure",
      "VSORRES": "118.2",
      "VSORRESU": "mmHg",
      "VSSTRESC": "118.2",
      "VSSTRESN": 118.2,
      "VSSTRESU": "mmHg",
      "VSLOC": "RIGHT ARM",
      "VISITNUM": 31,
      "VSDTC": "2025-06-16"
    },
    {
      "STUDYID": "CAMIS-001",
      "DOMAIN": "VS",
      "USUBJID": "CAMIS-PT-046",
      "VSSEQ": 46,
      "VSTESTCD": "SYSBP",
      "VSTEST": "Systolic Blood Pressure",
      "VSORRES": "117.4",
      "VSORRESU": "mmHg",
      "VSSTRESC": "117.4",
      "VSSTRESN": 117.4,
      "VSSTRESU": "mmHg",
      "VSLOC": "RIGHT ARM",
      "VISITNUM": 32,
      "VSDTC": "2025-06-16"
    },
    {
      "STUDYID": "CAMIS-001",
      "DOMAIN": "VS",
      "USUBJID": "CAMIS-PT-017",
      "VSSEQ": 17,
      "VSTESTCD": "SYSBP",
      "VSTEST": "Systolic Blood Pressure",
      "VSORRES": "115.9",
      "VSORRESU": "mmHg",
      "VSSTRESC": "115.9",
      "VSSTRESN": 115.9,
      "VSSTRESU": "mmHg",
      "VSLOC": "LEFT ARM",
      "VISITNUM": 33,
      "VSDTC": "2025-06-17"
    },
    {
      "STUDYID": "CAMIS-001",
      "DOMAIN": "VS",
      "USUBJID": "CAMIS-PT-047",
      "VSSEQ": 47,
      "VSTESTCD": "SYSBP",
      "VSTEST": "Systolic Blood Pressure",
      "VSORRES": "118.7",
      "VSORRESU": "mmHg",
      "VSSTRESC": "118.7",
      "VSSTRESN": 118.7,
      "VSSTRESU": "mmHg",
      "VSLOC": "LEFT ARM",
      "VISITNUM": 34,
      "VSDTC": "2025-06-17"
    },
    {
      "STUDYID": "CAMIS-001",
      "DOMAIN": "VS",
      "USUBJID": "CAMIS-PT-018",
      "VSSEQ": 18,
      "VSTESTCD": "SYSBP",
      "VSTEST": "Systolic Blood Pressure",
      "VSORRES": "122.6",
      "VSORRESU": "mmHg",
      "VSSTRESC": "122.6",
      "VSSTRESN": 122.6,
      "VSSTRESU": "mmHg",
      "VSLOC": "LEFT ARM",
      "VISITNUM": 35,
      "VSDTC": "2025-06-18"
    },
    {
      "STUDYID": "CAMIS-001",
      "DOMAIN": "VS",
      "USUBJID": "CAMIS-PT-048",
      "VSSEQ": 48,
      "VSTESTCD": "SYSBP",
      "VSTEST": "Systolic Blood Pressure",
      "VSORRES": "126.3",
      "VSORRESU": "mmHg",
      "VSSTRESC": "126.3",
      "VSSTRESN": 126.3,
      "VSSTRESU": "mmHg",
      "VSLOC": "RIGHT ARM",
      "VISITNUM": 36,
      "VSDTC": "2025-06-18"
    },
    {
      "STUDYID": "CAMIS-001",
      "DOMAIN": "VS",
      "USUBJID": "CAMIS-PT-019",
      "VSSEQ": 19,
      "VSTESTCD": "SYSBP",
      "VSTEST": "Systolic Blood Pressure",
      "VSORRES": "116.5",
      "VSORRESU": "mmHg",
      "VSSTRESC": "116.5",
      "VSSTRESN": 116.5,
      "VSSTRESU": "mmHg",
      "VSLOC": "LEFT ARM",
      "VISITNUM": 37,
      "VSDTC": "2025-06-19"
    },
    {
      "STUDYID": "CAMIS-001",
      "DOMAIN": "VS",
      "USUBJID": "CAMIS-PT-049",
      "VSSEQ": 49,
      "VSTESTCD": "SYSBP",
      "VSTEST": "Systolic Blood Pressure",
      "VSORRES": "122.7",
      "VSORRESU": "mmHg",
      "VSSTRESC": "122.7",
      "VSSTRESN": 122.7,
      "VSSTRESU": "mmHg",
      "VSLOC": "RIGHT ARM",
      "VISITNUM": 38,
      "VSDTC": "2025-06-19"
    },
    {
      "STUDYID": "CAMIS-001",
      "DOMAIN": "VS",
      "USUBJID": "CAMIS-PT-020",
      "VSSEQ": 20,
      "VSTESTCD": "SYSBP",
      "VSTEST": "Systolic Blood Pressure",
      "VSORRES": "113.9",
      "VSORRESU": "mmHg",
      "VSSTRESC": "113.9",
      "VSSTRESN": 113.9,
      "VSSTRESU": "mmHg",
      "VSLOC": "RIGHT ARM",
      "VISITNUM": 39,
      "VSDTC": "2025-06-20"
    },
    {
      "STUDYID": "CAMIS-001",
      "DOMAIN": "VS",
      "USUBJID": "CAMIS-PT-050",
      "VSSEQ": 50,
      "VSTESTCD": "SYSBP",
      "VSTEST": "Systolic Blood Pressure",
      "VSORRES": "112.2",
      "VSORRESU": "mmHg",
      "VSSTRESC": "112.2",
      "VSSTRESN": 112.2,
      "VSSTRESU": "mmHg",
      "VSLOC": "RIGHT ARM",
      "VISITNUM": 40,
      "VSDTC": "2025-06-20"
    },
    {
      "STUDYID": "CAMIS-001",
      "DOMAIN": "VS",
      "USUBJID": "CAMIS-PT-021",
      "VSSEQ": 21,
      "VSTESTCD": "SYSBP",
      "VSTEST": "Systolic Blood Pressure",
      "VSORRES": "128.3",
      "VSORRESU": "mmHg",
      "VSSTRESC": "128.3",
      "VSSTRESN": 128.3,
      "VSSTRESU": "mmHg",
      "VSLOC": "RIGHT ARM",
      "VISITNUM": 41,
      "VSDTC": "2025-06-21"
    },
    {
      "STUDYID": "CAMIS-001",
      "DOMAIN": "VS",
      "USUBJID": "CAMIS-PT-022",
      "VSSEQ": 22,
      "VSTESTCD": "SYSBP",
      "VSTEST": "Systolic Blood Pressure",
      "VSORRES": "119.9",
      "VSORRESU": "mmHg",
      "VSSTRESC": "119.9",
      "VSSTRESN": 119.9,
      "VSSTRESU": "mmHg",
      "VSLOC": "LEFT ARM",
      "VISITNUM": 42,
      "VSDTC": "2025-06-22"
    },
    {
      "STUDYID": "CAMIS-001",
      "DOMAIN": "VS",
      "USUBJID": "CAMIS-PT-023",
      "VSSEQ": 23,
      "VSTESTCD": "SYSBP",
      "VSTEST": "Systolic Blood Pressure",
      "VSORRES": "121.3",
      "VSORRESU": "mmHg",
      "VSSTRESC": "121.3",
      "VSSTRESN": 121.3,
      "VSSTRESU": "mmHg",
      "VSLOC": "LEFT ARM",
      "VISITNUM": 43,
      "VSDTC": "2025-06-23"
    },
    {
      "STUDYID": "CAMIS-001",
      "DOMAIN": "VS",
      "USUBJID": "CAMIS-PT-024",
      "VSSEQ": 24,
      "VSTESTCD": "SYSBP",
      "VSTEST": "Systolic Blood Pressure",
      "VSORRES": "113.9",
      "VSORRESU": "mmHg",
      "VSSTRESC": "113.9",
      "VSSTRESN": 113.9,
      "VSSTRESU": "mmHg",
      "VSLOC": "LEFT ARM",
      "VISITNUM": 44,
      "VSDTC": "2025-06-24"
    },
    {
      "STUDYID": "CAMIS-001",
      "DOMAIN": "VS",
      "USUBJID": "CAMIS-PT-025",
      "VSSEQ": 25,
      "VSTESTCD": "SYSBP",
      "VSTEST": "Systolic Blood Pressure",
      "VSORRES": "118.3",
      "VSORRESU": "mmHg",
      "VSSTRESC": "118.3",
      "VSSTRESN": 118.3,
      "VSSTRESU": "mmHg",
      "VSLOC": "RIGHT ARM",
      "VISITNUM": 45,
      "VSDTC": "2025-06-25"
    },
    {
      "STUDYID": "CAMIS-001",
      "DOMAIN": "VS",
      "USUBJID": "CAMIS-PT-026",
      "VSSEQ": 26,
      "VSTESTCD": "SYSBP",
      "VSTEST": "Systolic Blood Pressure",
      "VSORRES": "121.6",
      "VSORRESU": "mmHg",
      "VSSTRESC": "121.6",
      "VSSTRESN": 121.6,
      "VSSTRESU": "mmHg",
      "VSLOC": "LEFT ARM",
      "VISITNUM": 46,
      "VSDTC": "2025-06-26"
    },
    {
      "STUDYID": "CAMIS-001",
      "DOMAIN": "VS",
      "USUBJID": "CAMIS-PT-027",
      "VSSEQ": 27,
      "VSTESTCD": "SYSBP",
      "VSTEST": "Systolic Blood Pressure",
      "VSORRES": "115.2",
      "VSORRESU": "mmHg",
      "VSSTRESC": "115.2",
      "VSSTRESN": 115.2,
      "VSSTRESU": "mmHg",
      "VSLOC": "RIGHT ARM",
      "VISITNUM": 47,
      "VSDTC": "2025-06-27"
    },
    {
      "STUDYID": "CAMIS-001",
      "DOMAIN": "VS",
      "USUBJID": "CAMIS-PT-028",
      "VSSEQ": 28,
      "VSTESTCD": "SYSBP",
      "VSTEST": "Systolic Blood Pressure",
      "VSORRES": "122.9",
      "VSORRESU": "mmHg",
      "VSSTRESC": "122.9",
      "VSSTRESN": 122.9,
      "VSSTRESU": "mmHg",
      "VSLOC": "LEFT ARM",
      "VISITNUM": 48,
      "VSDTC": "2025-06-28"
    },
    {
      "STUDYID": "CAMIS-001",
      "DOMAIN": "VS",
      "USUBJID": "CAMIS-PT-029",
      "VSSEQ": 29,
      "VSTESTCD": "SYSBP",
      "VSTEST": "Systolic Blood Pressure",
      "VSORRES": "118.0",
      "VSORRESU": "mmHg",
      "VSSTRESC": "118.0",
      "VSSTRESN": 118.0,
      "VSSTRESU": "mmHg",
      "VSLOC": "RIGHT ARM",
      "VISITNUM": 49,
      "VSDTC": "2025-06-29"
    },
    {
      "STUDYID": "CAMIS-001",
      "DOMAIN": "VS",
      "USUBJID": "CAMIS-PT-030",
      "VSSEQ": 30,
      "VSTESTCD": "SYSBP",
      "VSTEST": "Systolic Blood Pressure",
      "VSORRES": "119.5",
      "VSORRESU": "mmHg",
      "VSSTRESC": "119.5",
      "VSSTRESN": 119.5,
      "VSSTRESU": "mmHg",
      "VSLOC": "RIGHT ARM",
      "VISITNUM": 50,
      "VSDTC": "2025-06-30"
    }
  ]
}