{
  "datasetJSONCreationDateTime": "2025-08-08 18:09:19",
  "datasetJSONVersion": "1.1.0",
  "itemGroupOID": "IG.VS",
  "records": 50,
  "name": "VS",
  "label": "Vital Signs",
  "columns": [
    {
      "itemOID": "IT.VS.STUDYID",
      "name": "STUDYID",
      "label": "Study Identifier",
      "dataType": "String",
      "role": "Identifier"
    },
    {
      "itemOID": "IT.VS.DOMAIN",
      "name": "DOMAIN",
      "label": "Domain Abbreviation",
      "dataType": "String",
      "role": "Identifier"
    },
    {
      "itemOID": "IT.VS.USUBJID",
      "name": "USUBJID",
      "label": "Unique Subject Identifier",
      "dataType": "String",
      "role": "Identifier"
    },
    {
      "itemOID": "IT.VS.VSSEQ",
      "name": "VSSEQ",
      "label": "Sequence Number",
      "dataType": "Integer",
      "role": "Identifier"
    },
    {
      "itemOID": "IT.VS.VSTESTCD",
      "name": "VSTESTCD",
      "label": "Vital Signs Test Short Name",
      "dataType": "String",
      "role": "Topic"
    },
    {
      "itemOID": "IT.VS.VSTEST",
      "name": "VSTEST",
      "label": "Vital Signs Test Name",
      "dataType": "String",
      "role": "Synonym Qualifier"
    },
    {
      "itemOID": "IT.VS.VSORRES",
      "name": "VSORRES",
      "label": "Result or Finding in Original Units",
      "dataType": "String",
      "role": "Result Qualifier"
    },
    {
      "itemOID": "IT.VS.VSORRESU",
      "name": "VSORRESU",
      "label": "Original Units",
      "dataType": "String",
      "role": "Variable Qualifier"
    },
    {
      "itemOID": "IT.VS.VSSTRESC",
      "name": "VSSTRESC",
      "label": "Character Result/Finding in Std Format",
      "dataType": "String",
      "role": "Result Qualifier"
    },
    {
      "itemOID": "IT.VS.VSSTRESN",
      "name": "VSSTRESN",
      "label": "Numeric Result/Finding in Standard Units",
      "dataType": "Float",
      "role": "Result Qualifier"
    },
    {
      "itemOID": "IT.VS.VSSTRESU",
      "name": "VSSTRESU",
      "label": "Standard Units",
      "dataType": "String",
      "role": "Variable Qualifier"
    },
    {
      "itemOID": "IT.VS.VSLOC",
      "name": "VSLOC",
      "label": "Location of Measurement",
      "dataType": "String",
      "role": "Record Qualifier"
    },
    {
      "itemOID": "IT.VS.VISITNUM",
      "name": "VISITNUM",
      "label": "Visit Number",
      "dataType": "Integer",
      "role": "Timing"
    },
    {
      "itemOID": "IT.VS.VSDTC",
      "name": "VSDTC",
      "label": "Date/Time of Measurement",
      "dataType": "Date",
      "role": "Timing"
    }
  ],
  "rows": [
    [
      "CAMIS-001",
      "VS",
      "CAMIS-PT-001",
      1,
      "SYSBP",
      "Systolic Blood Pressure",
      "123.5",
      "mmHg",
      "123.5",
      123.5,
      "mmHg",
      "RIGHT ARM",
      1,
      "2025-06-01"
    ],
    [
      "CAMIS-001",
      "VS",
      "CAMIS-PT-031",
      31,
      "SYSBP",
      "Systolic Blood Pressure",
      "118.0",
      "mmHg",
      "118.0",
      118.0,
      "mmHg",
      "RIGHT ARM",
      2,
      "2025-06-01"
    ],
    [
      "CAMIS-001",
      "VS",
      "CAMIS-PT-002",
      2,
      "SYSBP",
      "Systolic Blood Pressure",
      "120.3",
      "mmHg",
      "120.3",
      120.3,
      "mmHg",
      "LEFT ARM",
      3,
      "2025-06-02"
    ],
    [
      "CAMIS-001",
      "VS",
      "CAMIS-PT-032",
      32,
      "SYSBP",
      "Systolic Blood Pressure",
      "130.3",
      "mmHg",
      "130.3",
      130.3,
      "mmHg",
      "RIGHT ARM",
      4,
      "2025-06-02"
    ],
    [
      "CAMIS-001",
      "VS",
      "CAMIS-PT-003",
      3,
      "SYSBP",
      "Systolic Blood Pressure",
      "124.2",
      "mmHg",
      "124.2",
      124.2,
      "mmHg",
      "RIGHT ARM",
      5,
      "2025-06-03"
    ],
    [
      "CAMIS-001",
      "VS",
      "CAMIS-PT-033",
      33,
      "SYSBP",
      "Systolic Blood Pressure",
      "120.9",
      "mmHg",
      "120.9",
      120.9,
      "mmHg",
      "RIGHT ARM",
      6,
      "2025-06-03"
    ],
    [
      "CAMIS-001",
      "VS",
      "CAMIS-PT-004",
      4,
      "SYSBP",
      "Systolic Blood Pressure",
      "128.6",
      "mmHg",
      "128.6",
      128.6,
      "mmHg",
      "LEFT ARM",
      7,
      "2025-06-04"
    ],
    [
      "CAMIS-001",
      "VS",
      "CAMIS-PT-034",
      34,
      "SYSBP",
      "Systolic Blood Pressure",
      "115.7",
      "mmHg",
      "115.7",
      115.7,
      "mmHg",
      "RIGHT ARM",
      8,
      "2025-06-04"
    ],
    [
      "CAMIS-001",
      "VS",
      "CAMIS-PT-005",
      5,
      "SYSBP",
      "Systolic Blood Pressure",
      "119.8",
      "mmHg",
      "119.8",
      119.8,
      "mmHg",
      "LEFT ARM",
      9,
      "2025-06-05"
    ],
    [
      "CAMIS-001",
      "VS",
      "CAMIS-PT-035",
      35,
      "SYSBP",
      "Systolic Blood Pressure",
      "125.1",
      "mmHg",
      "125.1",
      125.1,
      "mmHg",
      "RIGHT ARM",
      10,
      "2025-06-05"
    ],
    [
      "CAMIS-001",
      "VS",
      "CAMIS-PT-006",
      6,
      "SYSBP",
      "Systolic Blood Pressure",
      "119.8",
      "mmHg",
      "119.8",
      119.8,
      "mmHg",
      "RIGHT ARM",
      11,
      "2025-06-06"
    ],
    [
      "CAMIS-001",
      "VS",
      "CAMIS-PT-036",
      36,
      "SYSBP",
      "Systolic Blood Pressure",
      "114.9",
      "mmHg",
      "114.9",
      114.9,
      "mmHg",
      "RIGHT ARM",
      12,
      "2025-06-06"
    ],
    [
      "CAMIS-001",
      "VS",
      "CAMIS-PT-007",
      7,
      "SYSBP",
      "Systolic Blood Pressure",
      "128.9",
      "mmHg",
      "128.9",
      128.9,
      "mmHg",
      "RIGHT ARM",
      13,
      "2025-06-07"
    ],
    [
      "CAMIS-001",
      "VS",
      "CAMIS-PT-037",
      37,
      "SYSBP",
      "Systolic Blood Pressure",
      "122.0",
      "mmHg",
      "122.0",
      122.0,
      "mmHg",
      "LEFT ARM",
      14,
      "2025-06-07"
    ],
    [
      "CAMIS-001",
      "VS",
      "CAMIS-PT-008",
      8,
      "SYSBP",
      "Systolic Blood Pressure",
      "124.8",
      "mmHg",
      "124.8",
      124.8,
      "mmHg",
      "LEFT ARM",
      15,
      "2025-06-08"
    ],
    [
      "CAMIS-001",
      "VS",
      "CAMIS-PT-038",
      38,
      "SYSBP",
      "Systolic Blood Pressure",
      "111.2",
      "mmHg",
      "111.2",
      111.2,
      "mmHg",
      "LEFT ARM",
      16,
      "2025-06-08"
    ],
    [
      "CAMIS-001",
      "VS",
      "CAMIS-PT-009",
      9,
      "SYSBP",
      "Systolic Blood Pressure",
      "118.7",
      "mmHg",
      "118.7",
      118.7,
      "mmHg",
      "LEFT ARM",
      17,
      "2025-06-09"
    ],
    [
      "CAMIS-001",
      "VS",
      "CAMIS-PT-039",
      39,
      "SYSBP",
      "Systolic Blood Pressure",
      "114.4",
      "mmHg",
      "114.4",
      114.4,
      "mmHg",
      "RIGHT ARM",
      18,
      "2025-06-09"
    ],
    [
      "CAMIS-001",
      "VS",
      "CAMIS-PT-010",
      10,
      "SYSBP",
      "Systolic Blood Pressure",
      "123.7",
      "mmHg",
      "123.7",
      123.7,
      "mmHg",
      "RIGHT ARM",
      19,
      "2025-06-10"
    ],
    [
      "CAMIS-001",
      "VS",
      "CAMIS-PT-040",
      40,
      "SYSBP",
      "Systolic Blood Pressure",
      "122.0",
      "mmHg",
      "122.0",
      122.0,
      "mmHg",
      "LEFT ARM",
      20,
      "2025-06-10"
    ],
    [
      "CAMIS-001",
      "VS",
      "CAMIS-PT-011",
      11,
      "SYSBP",
      "Systolic Blood Pressure",
      "118.7",
      "mmHg",
      "118.7",
      118.7,
      "mmHg",
      "RIGHT ARM",
      21,
      "2025-06-11"
    ],
    [
      "CAMIS-001",
      "VS",
      "CAMIS-PT-041",
      41,
      "SYSBP",
      "Systolic Blood Pressure",
      "124.7",
      "mmHg",
      "124.7",
      124.7,
      "mmHg",
      "LEFT ARM",
      22,
      "2025-06-11"
    ],
    [
      "CAMIS-001",
      "VS",
      "CAMIS-PT-012",
      12,
      "SYSBP",
      "Systolic Blood Pressure",
      "118.7",
      "mmHg",
      "118.7",
      118.7,
      "mmHg",
      "LEFT ARM",
      23,
      "2025-06-12"
    ],
    [
      "CAMIS-001",
      "VS",
      "CAMIS-PT-042",
      42,
      "SYSBP",
      "Systolic Blood Pressure",
      "121.9",
      "mmHg",
      "121.9",
      121.9,
      "mmHg",
      "LEFT ARM",
      24,
      "2025-06-12"
    ],
    [
      "CAMIS-001",
      "VS",
      "CAMIS-PT-013",
      13,
      "SYSBP",
      "Systolic Blood Pressure",
      "122.2",
      "mmHg",
      "122.2",
      122.2,
      "mmHg",
      "LEFT ARM",
      25,
      "2025-06-13"
    ],
    [
      "CAMIS-001",
      "VS",
      "CAMIS-PT-043",
      43,
      "SYSBP",
      "Systolic Blood Pressure",
      "120.4",
      "mmHg",
      "120.4",
      120.4,
      "mmHg",
      "LEFT ARM",
      26,
      "2025-06-13"
    ],
    [
      "CAMIS-001",
      "VS",
      "CAMIS-PT-014",
      14,
      "SYSBP",
      "Systolic Blood Pressure",
      "111.4",
      "mmHg",
      "111.4",
      111.4,
      "mmHg",
      "RIGHT ARM",
      27,
      "2025-06-14"
    ],
    [
      "CAMIS-001",
      "VS",
      "CAMIS-PT-044",
      44,
      "SYSBP",
      "Systolic Blood Pressure",
      "119.5",
      "mmHg",
      "119.5",
      119.5,
      "mmHg",
      "LEFT ARM",
      28,
      "2025-06-14"
    ],
    [
      "CAMIS-001",
      "VS",
      "CAMIS-PT-015",
      15,
      "SYSBP",
      "Systolic Blood Pressure",
      "112.4",
      "mmHg",
      "112.4",
      112.4,
      "mmHg",
      "RIGHT ARM",
      29,
      "2025-06-15"
    ],
    [
      "CAMIS-001",
      "VS",
      "CAMIS-PT-045",
      45,
      "SYSBP",
      "Systolic Blood Pressure",
      "113.6",
      "mmHg",
      "113.6",
      113.6,
      "mmHg",
      "RIGHT ARM",
      30,
      "2025-06-15"
    ],
    [
      "CAMIS-001",
      "VS",
      "CAMIS-PT-016",
      16,
      "SYSBP",
      "Systolic Blood Pressure",
      "118.2",
      "mmHg",
      "118.2",
      118.2,
      "mmHg",
      "RIGHT ARM",
      31,
      "2025-06-16"
    ],
    [
      "CAMIS-001",
      "VS",
      "CAMIS-PT-046",
      46,
      "SYSBP",
      "Systolic Blood Pressure",
      "117.4",
      "mmHg",
      "117.4",
      117.4,
      "mmHg",
      "RIGHT ARM",
      32,
      "2025-06-16"
    ],
    [
      "CAMIS-001",
      "VS",
      "CAMIS-PT-017",
      17,
      "SYSBP",
      "Systolic Blood Pressure",
      "115.9",
      "mmHg",
      "115.9",
      115.9,
      "mmHg",
      "LEFT ARM",
      33,
      "2025-06-17"
    ],
    [
      "CAMIS-001",
      "VS",
      "CAMIS-PT-047",
      47,
      "SYSBP",
      "Systolic Blood Pressure",
      "118.7",
      "mmHg",
      "118.7",
      118.7,
      "mmHg",
      "LEFT ARM",
      34,
      "2025-06-17"
    ],
    [
      "CAMIS-001",
      "VS",
      "CAMIS-PT-018",
      18,
      "SYSBP",
      "Systolic Blood Pressure",
      "122.6",
      "mmHg",
      "122.6",
      122.6,
      "mmHg",
      "LEFT ARM",
      35,
      "2025-06-18"
    ],
    [
      "CAMIS-001",
      "VS",
      "CAMIS-PT-048",
      48,
      "SYSBP",
      "Systolic Blood Pressure",
      "126.3",
      "mmHg",
      "126.3",
      126.3,
      "mmHg",
      "RIGHT ARM",
      36,
      "2025-06-18"
    ],
    [
      "CAMIS-001",
      "VS",
      "CAMIS-PT-019",
      19,
      "SYSBP",
      "Systolic Blood Pressure",
      "116.5",
      "mmHg",
      "116.5",
      116.5,
      "mmHg",
      "LEFT ARM",
      37,
      "2025-06-19"
    ],
    [
      "CAMIS-001",
      "VS",
      "CAMIS-PT-049",
      49,
      "SYSBP",
      "Systolic Blood Pressure",
      "122.7",
      "mmHg",
      "122.7",
      122.7,
      "mmHg",
      "RIGHT ARM",
      38,
      "2025-06-19"
    ],
    [
      "CAMIS-001",
      "VS",
      "CAMIS-PT-020",
      20,
      "SYSBP",
      "Systolic Blood Pressure",
      "113.9",
      "mmHg",
      "113.9",
      113.9,
      "mmHg",
      "RIGHT ARM",
      39,
      "2025-06-20"
    ],
    [
      "CAMIS-001",
      "VS",
      "CAMIS-PT-050",
      50,
      "SYSBP",
      "Systolic Blood Pressure",
      "112.2",
      "mmHg",
      "112.2",
      112.2,
      "mmHg",
      "RIGHT ARM",
      40,
      "2025-06-20"
    ],
    [
      "CAMIS-001",
      "VS",
      "CAMIS-PT-021",
      21,
      "SYSBP",
      "Systolic Blood Pressure",
      "128.3",
      "mmHg",
      "128.3",
      128.3,
      "mmHg",
      "RIGHT ARM",
      41,
      "2025-06-21"
    ],
    [
      "CAMIS-001",
      "VS",
      "CAMIS-PT-022",
      22,
      "SYSBP",
      "Systolic Blood Pressure",
      "119.9",
      "mmHg",
      "119.9",
      119.9,
      "mmHg",
      "LEFT ARM",
      42,
      "2025-06-22"
    ],
    [
      "CAMIS-001",
      "VS",
      "CAMIS-PT-023",
      23,
      "SYSBP",
      "Systolic Blood Pressure",
      "121.3",
      "mmHg",
      "121.3",
      121.3,
      "mmHg",
      "LEFT ARM",
      43,
      "2025-06-23"
    ],
    [
      "CAMIS-001",
      "VS",
      "CAMIS-PT-024",
      24,
      "SYSBP",
      "Systolic Blood Pressure",
      "113.9",
      "mmHg",
      "113.9",
      113.9,
      "mmHg",
      "LEFT ARM",
      44,
      "2025-06-24"
    ],
    [
      "CAMIS-001",
      "VS",
      "CAMIS-PT-025",
      25,
      "SYSBP",
      "Systolic Blood Pressure",
      "118.3",
      "mmHg",
      "118.3",
      118.3,
      "mmHg",
      "RIGHT ARM",
      45,
      "2025-06-25"
    ],
    [
      "CAMIS-001",
      "VS",
      "CAMIS-PT-026",
      26,
      "SYSBP",
      "Systolic Blood Pressure",
      "121.6",
      "mmHg",
      "121.6",
      121.6,
      "mmHg",
      "LEFT ARM",
      46,
      "2025-06-26"
    ],
    [
      "CAMIS-001",
      "VS",
      "CAMIS-PT-027",
      27,
      "SYSBP",
      "Systolic Blood Pressure",
      "115.2",
      "mmHg",
      "115.2",
      115.2,
      "mmHg",
      "RIGHT ARM",
      47,
      "2025-06-27"
    ],
    [
      "CAMIS-001",
      "VS",
      "CAMIS-PT-028",
      28,
      "SYSBP",
      "Systolic Blood Pressure",
      "122.9",
      "mmHg",
      "122.9",
      122.9,
      "mmHg",
      "LEFT ARM",
      48,
      "2025-06-28"
    ],
    [
      "CAMIS-001",
      "VS",
      "CAMIS-PT-029",
      29,
      "SYSBP",
      "Systolic Blood Pressure",
      "118.0",
      "mmHg",
      "118.0",
      118.0,
      "mmHg",
      "RIGHT ARM",
      49,
      "2025-06-29"
    ],
    [
      "CAMIS-001",
      "VS",
      "CAMIS-PT-030",
      30,
      "SYSBP",
      "Systolic Blood Pressure",
      "119.5",
      "mmHg",
      "119.5",
      119.5,
      "mmHg",
      "RIGHT ARM",
      50,
      "2025-06-30"
    ]
  ]
}